acc_x, acc_y, angular_z, stamp, 
0.04466205835342407, -0.0038794279098510742, 1.336706938002224e-11, 1770075791001666700, 
0.024738788604736328, 0.008499741554260254, 1.3155249291829792e-11, 1770075791031648962, 
-0.032832562923431396, -0.005970597267150879, -1.2781309307333183e-10, 1770075791063007568, 
-0.043406128883361816, -0.009454488754272461, -9.145107327115765e-11, 1770075791092562487, 
0.005505025386810303, 0.008611917495727539, -1.8702437808982798e-06, 1770075791124430523, 
0.0255584716796875, 0.01760542392730713, 3.477554575772195e-10, 1770075791151728010, 
0.003930151462554932, -0.00047957897186279297, 3.1145928260955334e-10, 1770075791182409121, 
-0.035591840744018555, -0.029249370098114014, 1.691303527104302e-10, 1770075791212346680, 
-0.026119112968444824, -0.018325090408325195, 2.415671109768115e-10, 1770075791242337077, 
-0.016856014728546143, 0.0034134387969970703, 4.095585519227336e-10, 1770075791272342789, 
0.03345048427581787, -0.03063070774078369, 3.850573396112616e-10, 1770075791302280473, 
0.0010808706283569336, -0.0053231120109558105, 2.4543552276877936e-10, 1770075791332444291, 
-0.03301572799682617, 0.005629122257232666, 1.816748044305407e-10, 1770075791364991047, 
0.017313718795776367, 0.011065840721130371, 1.9384488326107713e-10, 1770075791392267345, 
0.028056561946868896, -0.008738994598388672, 1.4051687311572215e-10, 1770075791422197645, 
-0.006416916847229004, -0.01946234703063965, 1.6032810428627922e-10, 1770075791452155266, 
-0.008279204368591309, -0.017526865005493164, 6.411033086497472e-11, 1770075791482505806, 
0.002526402473449707, 0.031164228916168213, 4.128323327257974e-11, 1770075791512259328, 
0.01880592107772827, -0.01912146806716919, 9.123911810191776e-12, 1770075791541974039, 
0.011443614959716797, -0.020774006843566895, 2.1072604912458418e-13, 1770075791572539434, 
-0.008662819862365723, 0.004568278789520264, -5.6889132158014564e-12, 1770075791604784928, 
-0.023035883903503418, -0.0006653070449829102, -2.7242568138310456e-12, 1770075791632253582, 
-0.022880911827087402, -0.004176020622253418, -1.8616200506054607e-11, 1770075791660882268, 
0.014893531799316406, -0.013140499591827393, -2.908048084892221e-11, 1770075791691798039, 
0.021960139274597168, -0.023893654346466064, -1.9577674852823596e-11, 1770075791721737737, 
-0.0053383708000183105, -0.003949999809265137, 2.6135442402765128e-11, 1770075791751692228, 
-0.001881420612335205, -0.0002092123031616211, 5.546311020784602e-11, 1770075791780618541, 
0.015883445739746094, -0.0019360780715942383, 7.485615719107263e-11, 1770075791812825364, 
0.02470564842224121, 0.024981439113616943, 9.496472773085656e-11, 1770075791844557820, 
0.0009338259696960449, -0.019716322422027588, 1.4904081594520664e-10, 1770075791872036826, 
-0.031213998794555664, -0.012220442295074463, 2.2292359467591622e-10, 1770075791901771308, 
0.004839599132537842, 0.029411494731903076, 2.658284766107995e-10, 1770075791931495831, 
0.013756871223449707, 0.015117228031158447, 2.2356218873434797e-10, 1770075791961424131, 
0.009945273399353027, -0.03328520059585571, 2.4489212538709563e-10, 1770075791991395648, 
-0.026902437210083008, -0.02216053009033203, 1.5818974564377366e-10, 1770075792021367809, 
0.017485618591308594, 0.017121076583862305, 0.0014208077512350272, 1770075792052956687, 
1.2039576768875122, 0.028614163398742676, 0.014276418842483103, 1770075792084496251, 
1.0356371402740479, -0.25062036514282227, 0.10358291313376071, 1770075792111477972, 
1.053850531578064, 0.28168874979019165, 0.07430519089815024, 1770075792141239292, 
1.2275683879852295, 0.15784382820129395, 0.07605981055255914, 1770075792171135066, 
1.2249325513839722, -0.27059853076934814, 0.09428505997875533, 1770075792201100878, 
0.3129192590713501, 0.07683837413787842, 0.09859929512722077, 1770075792231105314, 
0.3015460968017578, -0.015378773212432861, 0.114947197581624, 1770075792261196683, 
1.090989589691162, 0.12008589506149292, 0.14097507488075753, 1770075792292496679, 
0.5086060762405396, 0.13418424129486084, 0.1572455354796625, 1770075792324070305, 
1.0413405895233154, -0.039423584938049316, 0.18815311245297694, 1770075792350925677, 
1.176819086074829, -0.16277891397476196, 0.1753856199170353, 1770075792380865594, 
0.2957407832145691, -0.1404464840888977, 0.2091197591103255, 1770075792409857574, 
0.7586907744407654, 0.36189258098602295, 0.23844856166640277, 1770075792440878089, 
0.3637010455131531, 0.5981875658035278, 0.24806916175407565, 1770075792470834817, 
0.43146437406539917, 0.27090519666671753, 0.2627469355184151, 1770075792500816661, 
0.4010024666786194, -0.09116941690444946, 0.2549280435553368, 1770075792533053233, 
0.657323956489563, -0.23623162508010864, 0.2657056877194498, 1770075792563312819, 
0.2370479702949524, 0.3153361678123474, 0.20068804487647876, 1770075792590685368, 
-0.006360948085784912, 0.3284962773323059, 0.18487987229413372, 1770075792619609893, 
-0.264643132686615, -0.31490910053253174, 0.1729886461421075, 1770075792643334602, 
0.18745768070220947, 0.5289773344993591, 0.22422455598597424, 1770075792680648295, 
-0.34750211238861084, -0.10887515544891357, 0.20035865142858864, 1770075792710776718, 
0.12770682573318481, -0.15450847148895264, 0.20027809559109522, 1770075792740532720, 
0.010237455368041992, -0.023446321487426758, 0.2017784464496478, 1770075792773096659, 
-0.031064748764038086, 0.4413924813270569, 0.2807654003541897, 1770075792799698556, 
0.12846320867538452, -0.4949715733528137, 0.27413283371423536, 1770075792830332331, 
-0.21366995573043823, -0.3738800883293152, 0.3061185018668987, 1770075792860364972, 
-0.20079070329666138, -0.49006104469299316, 0.28485557683716484, 1770075792890486480, 
0.3908112049102783, -0.19997990131378174, 0.30676065486147136, 1770075792920286987, 
0.08219003677368164, 0.10841900110244751, 0.27858494672343936, 1770075792950555620, 
0.3022831082344055, 0.5737179517745972, 0.2462726331209094, 1770075792980784395, 
0.5816810131072998, -0.23603928089141846, 0.28891302135071734, 1770075793012528266, 
-0.1484144926071167, -0.49344074726104736, 0.37193277933253993, 1770075793040277828, 
-0.4098272919654846, -0.07409197092056274, 0.34339459255575616, 1770075793070097649, 
0.20857948064804077, 0.09391516447067261, 0.3121687543108059, 1770075793100155988, 
-0.47325599193573, -0.043107569217681885, 0.3066969935305539, 1770075793130067681, 
0.468744695186615, 0.3888050317764282, 0.3496454104514534, 1770075793160261145, 
0.3899317979812622, 0.47370845079421997, 0.38623592611868046, 1770075793190123485, 
0.009544193744659424, 0.04539412260055542, 0.3649618323359198, 1770075793221001407, 
0.5166196823120117, -0.17769485712051392, 0.316444423945714, 1770075793253017083, 
0.09087985754013062, 0.07222270965576172, 0.342144020905524, 1770075793279919133, 
-0.3053562045097351, 0.4160594344139099, 0.2811040183137448, 1770075793309789279, 
0.36060357093811035, 0.6120805740356445, 0.2643704898467036, 1770075793339774358, 
0.0011854171752929688, 0.3629007339477539, 0.2725736374695256, 1770075793369901563, 
0.04145050048828125, 0.13123220205307007, 0.2938444756381134, 1770075793399981328, 
-0.35117489099502563, 0.057893455028533936, 0.34319443040882003, 1770075793428604076, 
-0.3167939782142639, -0.3730882406234741, 0.3166004323147469, 1770075793460852997, 
0.107532799243927, 0.29019302129745483, 0.3274956379603394, 1770075793492563261, 
0.11556673049926758, 0.537854790687561, 0.3653890703463984, 1770075793519704607, 
-0.06286740303039551, 0.061511337757110596, 0.34468621886588313, 1770075793549488467, 
-0.7129673957824707, 0.20990490913391113, 0.36747019795819863, 1770075793579545320, 
-0.5126140117645264, 0.024476051330566406, 0.34516603046971905, 1770075793609476176, 
-0.2201661467552185, -0.3802186846733093, 0.3556105080091671, 1770075793639542699, 
-0.2358313798904419, 0.05073952674865723, 0.40357348662470127, 1770075793668581830, 
0.5044772624969482, 0.31828510761260986, 0.4025935468199615, 1770075793699605131, 
-0.4186144471168518, 0.41910213232040405, 0.35045438745972696, 1770075793733056105, 
0.2478194236755371, -0.1723296046257019, 0.44377135821665714, 1770075793769442196, 
-0.5444341897964478, 0.017780542373657227, 0.4085893015143387, 1770075793799676759, 
-0.1923835277557373, 0.28344887495040894, 0.39389436599372274, 1770075793829461342, 
-0.09665113687515259, 0.9772262573242188, 0.33783403408696716, 1770075793861137609, 
0.08518922328948975, 0.13370174169540405, 0.3512942128573366, 1770075793892447957, 
-0.06017249822616577, 0.13751304149627686, 0.44995665841997134, 1770075793919646688, 
0.03168690204620361, 0.60565584897995, 0.42178292620000435, 1770075793949689670, 
0.3248279094696045, 0.10378611087799072, 0.43112625163798274, 1770075793979391737, 
0.03782254457473755, 0.6065614819526672, 0.44810458316256296, 1770075794009252568, 
1.060238003730774, 0.4221716523170471, 0.46646985278741193, 1770075794039283417, 
-0.4548267126083374, -0.13854998350143433, 0.43876956244143, 1770075794069278548, 
0.09686559438705444, -0.8790836930274963, 0.43412583349940714, 1770075794099618569, 
-0.30775725841522217, 0.2750222682952881, 0.43199049708066645, 1770075794131463245, 
-0.501895010471344, 0.1931554079055786, 0.46029359338410025, 1770075794159323315, 
0.3305763602256775, 0.20094943046569824, 0.41521277665787953, 1770075794189263026, 
0.17549651861190796, 0.5084870457649231, 0.43244381291341283, 1770075794219274276, 
0.6853877902030945, 0.22735971212387085, 0.48090094387782245, 1770075794249219691, 
-0.0979275107383728, 0.23100900650024414, 0.48151611987793547, 1770075794279528261, 
-0.025689303874969482, -0.30749237537384033, 0.4830324810265029, 1770075794309216645, 
-0.4167482852935791, -0.44330817461013794, 0.4692998121384852, 1770075794340657814, 
0.3380817770957947, 0.6074782013893127, 0.5031438894379401, 1770075794368814837, 
0.010193169116973877, 0.5152263641357422, 0.43041251051065765, 1770075794399303684, 
-0.6638423204421997, 0.47972673177719116, 0.4563888010126488, 1770075794428432253, 
0.07698708772659302, 0.22590994834899902, 0.5039921621434574, 1770075794458432146, 
-0.22130244970321655, -0.3085930347442627, 0.5184224004933444, 1770075794488411089, 
-0.6042083501815796, -0.2347927689552307, 0.484854047572836, 1770075794518498575, 
0.5123834013938904, -0.06389796733856201, 0.4996982491626715, 1770075794549131343, 
-0.32618242502212524, 0.2895737290382385, 0.5218650175697994, 1770075794580676020, 
-0.08741015195846558, 0.6327953338623047, 0.5921163180688446, 1770075794608290790, 
-0.5591890811920166, 0.5275919437408447, 0.5190878227066262, 1770075794638271246, 
-0.17329692840576172, -0.059053242206573486, 0.5175189588157834, 1770075794668304075, 
-0.6258912086486816, -0.09327900409698486, 0.5787553819710578, 1770075794698186766, 
-0.14050936698913574, 0.35792696475982666, 0.568908552173191, 1770075794728098063, 
0.12879294157028198, 0.3393692970275879, 0.5202927888090204, 1770075794758136516, 
0.17076659202575684, 0.6164669990539551, 0.5014356590330775, 1770075794788799643, 
0.4966191053390503, 0.20572882890701294, 0.509807858427277, 1770075794820102191, 
-0.16729509830474854, 0.036376893520355225, 0.5349629605794931, 1770075794848082148, 
-0.02194035053253174, -0.22939413785934448, 0.49253102812444316, 1770075794877976054, 
0.03386789560317993, -0.18621736764907837, 0.49363084082761044, 1770075794907831962, 
-0.14690077304840088, 0.22949588298797607, 0.49972941753175787, 1770075794937855587, 
0.5403786897659302, 0.5916958451271057, 0.5111233333005163, 1770075794967862593, 
0.05650949478149414, 0.6737580895423889, 0.4977150465629231, 1770075794997932765, 
-0.2636302709579468, 0.43136632442474365, 0.5557909993345157, 1770075795067718746, 
-0.6450055837631226, 0.41440439224243164, 0.5557564410882397, 1770075795097686561, 
-0.4486343264579773, -0.3042643070220947, 0.5969970473417793, 1770075795127636168, 
-0.010539770126342773, -0.20478945970535278, 0.65257804230427, 1770075795156620053, 
-0.038788020610809326, 0.08220404386520386, 0.5722503813137433, 1770075795189341549, 
0.2191634178161621, 0.6980944871902466, 0.5711339657510539, 1770075795220352929, 
0.42252129316329956, 0.5898754000663757, 0.6347193277462464, 1770075795247536314, 
-0.5228825211524963, -0.03794550895690918, 0.5589282736489246, 1770075795277469117, 
-0.04510700702667236, 0.27870821952819824, 0.5435480123498267, 1770075795307569230, 
-0.24871784448623657, 0.0433574914932251, 0.6112033877129728, 1770075795337438926, 
-0.3157973885536194, 0.14516514539718628, 0.6138371627382124, 1770075795367456603, 
0.4869697690010071, 0.4084540009498596, 0.6026839309097259, 1770075795397365010, 
-0.17723357677459717, 0.16004693508148193, 0.5883469811137867, 1770075795429650225, 
-0.08595168590545654, 0.5215635299682617, 0.645467380940525, 1770075795460158495, 
-0.027447879314422607, 0.6951965093612671, 0.7102162750714095, 1770075795487269799, 
-0.35838615894317627, -0.23391151428222656, 0.6075677556513454, 1770075795517343292, 
-0.2509930729866028, 0.06383967399597168, 0.5966856028822088, 1770075795539823372, 
-0.5655527710914612, 0.5509639382362366, 0.7527270777052785, 1770075795567421544, 
-0.11528879404067993, 0.24589961767196655, 0.6159024634244155, 1770075795597072595, 
0.7391086220741272, -0.36571210622787476, 0.5982824142405291, 1770075795627257362, 
-0.09822076559066772, 0.06496667861938477, 0.6611643334796813, 1770075795656996296, 
0.17022228240966797, 0.5329495668411255, 0.6063650229326857, 1770075795686965196, 
-0.1173214316368103, 0.31637513637542725, 0.5895644656979442, 1770075795717528799, 
-0.1577460765838623, 0.17950963973999023, 0.5689958175377144, 1770075795749032403, 
0.9922740459442139, 0.010145187377929688, 0.6025323112855985, 1770075795779364727, 
-0.07401955127716064, 0.5901105999946594, 0.6594684415059802, 1770075795816786991, 
0.7138570547103882, 0.11351054906845093, 0.5969647789391346, 1770075795846734663, 
-0.9971539974212646, 0.4429662227630615, 0.5787409564070798, 1770075795877323984, 
-0.5805333852767944, -0.10912966728210449, 0.6132449363273984, 1770075795909319541, 
-1.321656346321106, -0.2310870885848999, 0.6315620580150286, 1770075795936641067, 
-0.7373992800712585, 0.09538435935974121, 0.5500661756849082, 1770075795965791458, 
-0.10673969984054565, -0.12313586473464966, 0.44530716806580667, 1770075795989097630, 
-0.948628306388855, 0.37313467264175415, 0.48996771694448715, 1770075796026511376, 
-0.49147623777389526, -0.13534319400787354, 0.4066824976813585, 1770075796056449803, 
-0.8406018614768982, -0.14830118417739868, 0.3709478713495966, 1770075796085586852, 
-0.28011149168014526, 0.0726475715637207, 0.3206946000767598, 1770075796116936900, 
-0.22316700220108032, -0.254885196685791, 0.2679002378477971, 1770075796148963275, 
0.32626861333847046, 0.29438090324401855, 0.27421693208833886, 1770075796176376881, 
1.1378775835037231, 0.5092495679855347, 0.4257911016055138, 1770075796206331890, 
1.3880269527435303, 0.017285048961639404, 0.46859783824824996, 1770075796229271713, 
0.7803683280944824, 0.03820633888244629, 0.5469813420425876, 1770075796266308338, 
1.078208327293396, -0.059932827949523926, 0.5831778510742226, 1770075796296265642, 
-0.5907551646232605, 0.4965605139732361, 0.6295581115971312, 1770075796326382186, 
0.39677339792251587, 0.6973294019699097, 0.6604363229132277, 1770075796357552893, 
0.4366210103034973, 0.16471529006958008, 0.7555086228892639, 1770075796388865960, 
0.565537691116333, 0.17037665843963623, 0.8219303903585026, 1770075796425071311, 
-0.24542200565338135, 0.25470829010009766, 0.683548248089472, 1770075796456055707, 
-0.19555485248565674, 0.40802592039108276, 0.7319118243490244, 1770075796486126417, 
0.43402886390686035, 0.28467005491256714, 0.7400841704569734, 1770075796517018704, 
0.082744300365448, 0.0020586252212524414, 0.7121332122841882, 1770075796549462450, 
-0.0495227575302124, 0.31852972507476807, 0.8697633395000928, 1770075796575927393, 
0.4201493263244629, -0.24582237005233765, 0.7137846286780368, 1770075796605842147, 
-0.322359561920166, 0.04086709022521973, 0.5902303097419809, 1770075796628864215, 
0.32925522327423096, 0.35892200469970703, 0.7904299538115916, 1770075796665895692, 
0.08605265617370605, 0.89481520652771, 0.7845651878995255, 1770075796695714372, 
-0.15942370891571045, 0.1853838562965393, 0.7538987403611134, 1770075796725899668, 
-0.5899681448936462, 0.10604870319366455, 0.7186908520921069, 1770075796757547319, 
-0.8843274116516113, 0.05836296081542969, 0.7341249725766966, 1770075796788828775, 
0.4800734519958496, 0.5966544151306152, 0.892631493733164, 1770075796824600504, 
-0.028652727603912354, 0.372106671333313, 0.7587963372832969, 1770075796855783222, 
0.4531257748603821, 0.17907828092575073, 0.7592088596312991, 1770075796885487929, 
-0.02977699041366577, -0.10847526788711548, 0.7503769151036518, 1770075796917096185, 
0.14851629734039307, -0.14171254634857178, 0.7645178742747124, 1770075796948889486, 
-0.17742198705673218, 0.2544747591018677, 0.8943813661673857, 1770075796975448152, 
0.059814453125, 0.8807764649391174, 0.7848107949929748, 1770075797005318192, 
0.09916770458221436, 0.16527175903320312, 0.6962057250638561, 1770075797028100849, 
0.024872183799743652, 0.4227074980735779, 0.8840787847184164, 1770075797065258585, 
-0.33420848846435547, 0.17431092262268066, 0.8243237331770931, 1770075797095259308, 
0.3494899868965149, -0.04736596345901489, 0.8502838923324848, 1770075797125530542, 
-0.44289731979370117, 0.14621680974960327, 0.8099107179542862, 1770075797157014417, 
0.6879940032958984, 0.04827582836151123, 0.8162862628092116, 1770075797187693979, 
-0.07203423976898193, -0.13409417867660522, 0.8929266302909825, 1770075797224150183, 
-0.536384642124176, -0.08233481645584106, 0.7942648647556081, 1770075797255064113, 
0.3133769631385803, 0.32198643684387207, 0.8498633795873489, 1770075797285075988, 
0.004013419151306152, 0.08254069089889526, 0.7851360600492419, 1770075797316677888, 
-0.3696405291557312, 0.7350904941558838, 0.7746827078258733, 1770075797347710761, 
-0.5093498826026917, -0.03649812936782837, 0.8862674392552081, 1770075797385051382, 
0.10851991176605225, -0.051025331020355225, 0.8628209440415794, 1770075797414932543, 
-0.19618737697601318, 0.25122159719467163, 0.8194248544275572, 1770075797445509077, 
-0.29563456773757935, 0.7740800380706787, 0.8094141374086382, 1770075797476971453, 
-0.3647770285606384, -0.04215502738952637, 0.9506510239254728, 1770075797504872319, 
-0.28018635511398315, 0.01610642671585083, 0.8976718457262517, 1770075797534856354, 
0.3361220359802246, 0.45168793201446533, 0.8934693440608346, 1770075797564730780, 
0.11560201644897461, 0.004150211811065674, 0.8795282570354891, 1770075797594619499, 
0.07574981451034546, 0.7488855123519897, 0.839343480954055, 1770075797624682408, 
0.22011041641235352, 0.17942696809768677, 0.8401093264219025, 1770075797653595151, 
-0.39639008045196533, -0.2795882225036621, 0.7994475504943768, 1770075797684820691, 
0.23201841115951538, 0.26017701625823975, 0.7739260182388323, 1770075797717223343, 
0.3403888940811157, 0.12958496809005737, 0.9748148845026033, 1770075797744550288, 
0.012244105339050293, 0.28078538179397583, 0.8905416920160434, 1770075797774418947, 
0.3666355013847351, 0.9446455240249634, 0.8954085322881582, 1770075797803607450, 
-0.10855180025100708, 0.08373546600341797, 0.8713251064782009, 1770075797834497355, 
-0.15782403945922852, -0.09668177366256714, 0.9288780400043238, 1770075797864721002, 
-0.04859793186187744, 0.324959933757782, 0.945251068461148, 1770075797894479675, 
-0.01738870143890381, -0.17411911487579346, 0.891052003459985, 1770075797924936914, 
0.18910300731658936, 0.6308547258377075, 0.8443467334264122, 1770075797957536915, 
0.9163810610771179, 0.508845329284668, 1.0403811640367335, 1770075797984539052, 
-0.5189213752746582, 0.28759241104125977, 0.9545532359911763, 1770075798013175143, 
0.12422776222229004, 0.514966607093811, 0.8977640157281459, 1770075798044063938, 
-0.15687590837478638, 0.13221979141235352, 0.955087005026461, 1770075798074058887, 
-0.0799340009689331, -0.12169110774993896, 0.9305238369930595, 1770075798104068052, 
0.3032565712928772, 0.10136479139328003, 0.940339251604022, 1770075798133963679, 
0.03189140558242798, 0.5912472605705261, 0.8980198931324402, 1770075798164863201, 
0.26381194591522217, 0.8065834045410156, 0.8655997718678853, 1770075798196919255, 
-0.02982497215270996, 0.3733925223350525, 1.0708949945510233, 1770075798223919688, 
-0.1844174861907959, 0.1637929081916809, 0.9636367696189332, 1770075798253820052, 
0.13404661417007446, -0.39370667934417725, 0.9501757497974347, 1770075798283847158, 
-0.0507047176361084, 0.5997774600982666, 0.9505240260478911, 1770075798313733999, 
0.07889008522033691, 0.20881611108779907, 0.9341883413384454, 1770075798343833506, 
-0.36871665716171265, 0.3419297933578491, 0.9644339111333287, 1770075798373704071, 
-0.4296830892562866, 0.8244429230690002, 0.9199498371522498, 1770075798405319161, 
-0.012448549270629883, -0.058544158935546875, 0.8777776668777456, 1770075798437281365, 
-0.4411557912826538, 0.3280966877937317, 1.0363201670227733, 1770075798473734672, 
0.16063779592514038, 0.6534186005592346, 0.9447693265779742, 1770075798503540176, 
-0.3103243112564087, 0.003987789154052734, 0.9748611108394118, 1770075798532585540, 
-0.08388710021972656, 0.49538952112197876, 0.8792028428037785, 1770075798565158804, 
0.035894691944122314, 0.00600588321685791, 0.9285432882887932, 1770075798596303124, 
0.034068286418914795, 0.059797585010528564, 1.0498526607349823, 1770075798623462185, 
0.3789578676223755, 0.4101579189300537, 0.9288271348238049, 1770075798653408539, 
0.43594372272491455, 0.5953182578086853, 0.9556307287228256, 1770075798683390821, 
-0.25857824087142944, -0.21718168258666992, 0.997205320250273, 1770075798713636113, 
0.19929397106170654, 0.16925692558288574, 1.0154709402005155, 1770075798743315411, 
-0.045233309268951416, 0.2887556552886963, 1.0260140674098335, 1770075798772212157, 
0.6272655129432678, 0.7192927598953247, 0.8743755360956178, 1770075798805047556, 
0.3007863759994507, 0.6051172018051147, 0.9283239018276839, 1770075798835835800, 
0.15817350149154663, 0.39409708976745605, 1.0903918708644968, 1770075798863081898, 
-0.517087459564209, -0.043704867362976074, 1.0470783756737887, 1770075798893072506, 
0.8350285291671753, 0.23104971647262573, 1.064972727476557, 1770075798923065156, 
-0.2763608694076538, 0.12752681970596313, 1.0414255053613186, 1770075798952984954, 
0.16690510511398315, 0.2877953052520752, 1.0539988651900478, 1770075798982931676, 
0.12066811323165894, 0.6376785635948181, 1.042433799733198, 1770075799012976619, 
-0.5996747016906738, 0.3015175461769104, 0.9387858428202014, 1770075799045307313, 
-0.04230141639709473, 0.02424800395965576, 1.0966850437457671, 1770075799072917585, 
-0.10942274332046509, 0.31973129510879517, 1.0169966457798476, 1770075799103023290, 
-0.2998424172401428, -0.026907384395599365, 0.9196973979875461, 1770075799125240744, 
0.7579304575920105, 0.969653308391571, 1.110765334760644, 1770075799162847214, 
0.00038868188858032227, 0.41790980100631714, 1.0531164810142877, 1770075799192727961, 
0.4221535921096802, 0.7761369943618774, 1.0569791939147362, 1770075799222755710, 
-0.40759825706481934, 0.04944354295730591, 1.069487408986131, 1770075799253081184, 
-0.04317831993103027, 0.07214385271072388, 0.9955075544368504, 1770075799284948329, 
-0.2385314702987671, -0.23732727766036987, 1.104656754351035, 1770075799312818569, 
0.08632707595825195, 0.6040846109390259, 1.087014213809179, 1770075799341662532, 
0.5259543061256409, 0.4228525757789612, 1.0351217192482778, 1770075799372468550, 
-0.1553148627281189, 0.7376382946968079, 1.0611449050410697, 1770075799402433298, 
0.05671358108520508, 0.3080601096153259, 1.0716944798622587, 1770075799431668256, 
0.022034943103790283, -0.11987346410751343, 1.0401169741216005, 1770075799462462584, 
-0.23902004957199097, 0.1288784146308899, 1.0644195359884983, 1770075799493548945, 
0.33820825815200806, 0.667424201965332, 1.0114243416378677, 1770075799525148860, 
-0.3020767569541931, 0.11339753866195679, 1.1528826575591178, 1770075799552350968, 
-0.024320900440216064, 0.7026780247688293, 1.0724664939967967, 1770075799581178976, 
0.4410216212272644, 0.14850234985351562, 0.8841307084048163, 1770075799604893312, 
0.17527467012405396, 0.4540356993675232, 1.1578481124490085, 1770075799632267717, 
-0.3363555073738098, 0.17612206935882568, 1.0601476958734726, 1770075799662166516, 
0.3873552680015564, 0.854543149471283, 0.93226795933573, 1770075799685342578, 
-0.4617761969566345, -0.15626633167266846, 1.2087060995660621, 1770075799722062524, 
0.23025977611541748, -0.03264206647872925, 1.105256002019286, 1770075799752094507, 
0.3114053010940552, 0.4931679964065552, 1.1021205792888853, 1770075799781980485, 
0.12480282783508301, 0.40142709016799927, 1.0437669668527692, 1770075799813323235, 
-0.08144080638885498, 0.4539406895637512, 1.0377891900581873, 1770075799844982631, 
0.4220689535140991, 0.22335165739059448, 1.2258980382352942, 1770075799881888973, 
-0.19486922025680542, 0.423239529132843, 1.1209979340863072, 1770075799912144165, 
-0.024667441844940186, 0.3993392586708069, 1.1246757051720733, 1770075799941878523, 
-0.26924657821655273, -0.1958986520767212, 1.0499625113668807, 1770075799972959939, 
0.06495320796966553, 0.24332398176193237, 1.0373338344907663, 1770075800004781090, 
-0.3486495018005371, 0.33928394317626953, 1.2301968301398125, 1770075800031759856, 
-0.7609406113624573, 0.2858160734176636, 1.0947536385705958, 1770075800061670297, 
0.11235648393630981, 0.6570155024528503, 1.107598704996543, 1770075800091736499, 
-0.17516368627548218, 0.42129969596862793, 1.1102393709300047, 1770075800121675433, 
0.012175559997558594, -0.2552757263183594, 1.0730270062580454, 1770075800151563525, 
0.025439560413360596, 0.2586657404899597, 1.0770185316051926, 1770075800181509055, 
-0.26233047246932983, 0.019837617874145508, 1.0195873543736769, 1770075800213086134, 
0.2359912395477295, 0.49525946378707886, 1.0378222083666746, 1770075800244509879, 
-0.49912816286087036, 0.5431947708129883, 1.2562901615715978, 1770075800271491790, 
0.2923012375831604, 0.6443459987640381, 1.119335256508906, 1770075800301564030, 
-0.3089010715484619, 0.07956504821777344, 1.1037531630967605, 1770075800331321540, 
0.05020153522491455, 0.17779767513275146, 1.1198610449318656, 1770075800361325787, 
-0.4227587580680847, -0.08113402128219604, 1.104218291819968, 1770075800390982294, 
-0.843741774559021, -0.3410447835922241, 1.0060437586470021, 1770075800421691222, 
-0.5454062223434448, 0.25474321842193604, 0.8714819321934216, 1770075800453793663, 
-0.0876626968383789, 0.0626291036605835, 0.9272365826874849, 1770075800483679011, 
0.9574069380760193, 0.3743181824684143, 1.057010359842741, 1770075800511322803, 
0.512787938117981, 0.27600371837615967, 1.1658448892590745, 1770075800541208134, 
1.2082204818725586, 0.07809096574783325, 1.0191584956869602, 1770075800563908946, 
-0.18605226278305054, 0.05294138193130493, 1.1708306119006118, 1770075800601050131, 
-0.006181061267852783, 0.7452647089958191, 1.0971694214116015, 1770075800631099397, 
-0.1596975326538086, 0.7459054589271545, 1.0917184040916537, 1770075800660973524, 
-0.12985259294509888, -0.09868478775024414, 0.9884640890602804, 1770075800694748165, 
-0.6103405356407166, -0.0666574239730835, 1.317529502387611, 1770075800720946455, 
0.2031785249710083, 0.012837529182434082, 1.2043684605344345, 1770075800750849615, 
-0.30125123262405396, 0.5952653288841248, 1.204142350725926, 1770075800780826480, 
0.5665749311447144, 0.3998280167579651, 1.1687771713000323, 1770075800840690742, 
0.026146769523620605, 0.2947049140930176, 1.1660141289233643, 1770075800870710071, 
-0.33504146337509155, 0.10590368509292603, 1.1291946919864864, 1770075800901663133, 
-0.04117226600646973, 0.03951859474182129, 1.1136257585549814, 1770075800933209972, 
-0.2317899465560913, -0.13201934099197388, 1.3195079934177543, 1770075800960692942, 
-0.0006163120269775391, 0.6367665529251099, 1.1998532605665386, 1770075800990661243, 
-0.7269741892814636, 0.25410228967666626, 1.059312432775142, 1770075801020723800, 
-0.7421502470970154, 0.15995091199874878, 0.9111560736770118, 1770075801050635433, 
-0.741599440574646, 0.004756808280944824, 0.8932255323929608, 1770075801080534871, 
-0.5926905870437622, 0.02976703643798828, 0.8194936127783282, 1770075801111010472, 
0.004755079746246338, -0.282228946685791, 0.7061812344610376, 1770075801141243499, 
0.5028353929519653, 0.05164504051208496, 0.6666119568255171, 1770075801172979919, 
1.461984634399414, 0.9946996569633484, 0.9561300960572316, 1770075801199400137, 
0.935361385345459, 0.28791457414627075, 1.0065284866729451, 1770075801230289022, 
0.9032309055328369, 0.13274109363555908, 1.0565906231366307, 1770075801260393707, 
0.2960447669029236, 0.6534402966499329, 1.1285717928617098, 1770075801290494696, 
-0.002152740955352783, 0.3000403046607971, 1.1529986289581378, 1770075801320146097, 
-0.2803257703781128, 0.15244323015213013, 1.0876878825375875, 1770075801350116030, 
0.08819133043289185, -0.1865583062171936, 1.0832438456433962, 1770075801381028257, 
0.10600382089614868, 0.48769551515579224, 1.0500489831903426, 1770075801413668810, 
-0.16056138277053833, 0.2331426739692688, 1.2617417068140402, 1770075801440442747, 
-0.14548486471176147, 0.7747818231582642, 1.1508077800878926, 1770075801470006662, 
0.432270884513855, 0.3676079511642456, 1.1783371649374457, 1770075801499921589, 
-0.3387413024902344, 0.2633841633796692, 1.146566079335917, 1770075801530102223, 
0.24900615215301514, -0.11870288848876953, 1.1508614156259562, 1770075801560124842, 
-0.20143753290176392, 0.186415433883667, 1.1666096451682206, 1770075801590035821, 
-1.0193344354629517, 0.24350202083587646, 1.0821302150496845, 1770075801620990501, 
0.04593569040298462, 0.4245372414588928, 1.0469276357863022, 1770075801653456910, 
-0.4690454602241516, 0.665852963924408, 1.294498486323211, 1770075801680110422, 
-0.2993534803390503, 0.280917227268219, 1.153986508820963, 1770075801709938673, 
-0.19195783138275146, 0.44785362482070923, 1.1386558089263716, 1770075801739889635, 
-0.14391136169433594, 0.12950372695922852, 1.1405805099383313, 1770075801769905840, 
-0.08903306722640991, -0.44301658868789673, 1.1632698988233308, 1770075801799934612, 
-0.15581095218658447, 0.6877186894416809, 1.1543835362346584, 1770075801830023721, 
0.06141906976699829, 0.6500175595283508, 1.1088556321052516, 1770075801861487954, 
-0.1508808732032776, 0.601805567741394, 1.1531865706642002, 1770075801891967541, 
0.08982235193252563, 0.3181335926055908, 1.2900259954371398, 1770075801919695629, 
-0.22605156898498535, 0.23544228076934814, 1.1651421931451775, 1770075801949693406, 
0.06695705652236938, -0.2221086621284485, 1.172847542382327, 1770075801979681673, 
-0.07769840955734253, 0.26426899433135986, 1.166705202928709, 1770075802009680695, 
0.22913920879364014, 0.3853304386138916, 1.14198184672866, 1770075802039769658, 
-0.20553332567214966, 0.5102463960647583, 1.1537688441632785, 1770075802069882876, 
0.18388521671295166, 0.874546468257904, 1.0929779368209733, 1770075802101249114, 
0.22564536333084106, 0.05804318189620972, 1.1292208643206414, 1770075802131917422, 
0.2117089033126831, -0.00890648365020752, 1.3060951409038275, 1770075802159789397, 
0.03288567066192627, 0.08788180351257324, 1.2059065055143725, 1770075802189691448, 
0.2366640567779541, 0.27137112617492676, 1.0311047996058404, 1770075802211798647, 
-0.37728351354599, -0.13205063343048096, 1.1968233979870513, 1770075802239838992, 
0.14427077770233154, 0.1472455859184265, 1.1142494171335229, 1770075802269764782, 
0.09599840641021729, 0.26118576526641846, 1.12386857173434, 1770075802299636814, 
0.014638721942901611, 0.5382477045059204, 1.1268519265579042, 1770075802330151278, 
0.0941886305809021, 0.0034368038177490234, 1.233398332761856, 1770075802358609810, 
0.48633623123168945, -0.06282520294189453, 1.1600478949824742, 1770075802389100566, 
-0.17648619413375854, 0.13944780826568604, 1.0671385713102797, 1770075802421001485, 
0.7959448099136353, 0.08003824949264526, 1.2246652596503844, 1770075802458876266, 
-0.31684446334838867, -0.06989151239395142, 1.1411943842239256, 1770075802488959452, 
-0.15706872940063477, -0.23886269330978394, 1.140065975502596, 1770075802518737415, 
-0.39471256732940674, 0.38867872953414917, 1.0783360790622911, 1770075802549445393, 
0.08542275428771973, 0.4493520259857178, 1.0565230029224866, 1770075802581418086, 
0.4439604878425598, 0.8345023393630981, 1.29894819255488, 1770075802608755454, 
0.9692973494529724, 0.3551427125930786, 1.2185513000308816, 1770075802638737300, 
0.06692904233932495, 0.11201971769332886, 1.1754227079184145, 1770075802668544257, 
0.36341559886932373, 0.24232017993927002, 1.148506747730145, 1770075802698484669, 
-0.024657130241394043, -0.09865278005599976, 1.192859231354374, 1770075802727627978, 
-0.5450955033302307, 0.42545682191848755, 1.1071304330564844, 1770075802758505297, 
0.6473478078842163, 0.467105507850647, 1.1385939798633555, 1770075802788428488, 
-0.25886619091033936, 0.24145764112472534, 1.0308404414247816, 1770075802821640526, 
-0.12767702341079712, 0.3780773878097534, 1.2950623047546916, 1770075802848420292, 
-0.20789438486099243, -0.18524658679962158, 1.1979534176329607, 1770075802878282864, 
-0.45555001497268677, 0.6614708304405212, 1.0150006889448655, 1770075802901354608, 
0.5080661773681641, 0.13473671674728394, 1.2775533397321175, 1770075802938175505, 
-0.439588725566864, 0.6507106423377991, 1.1792071360430907, 1770075802968155545, 
-0.0361170768737793, 0.5350315570831299, 1.141234988433016, 1770075802998283455, 
-0.1138494610786438, 0.6301947832107544, 1.112596712258087, 1770075803029488502, 
-0.26051563024520874, 0.24664825201034546, 1.1208780491530783, 1770075803061061602, 
-0.6828805804252625, 0.1863088607788086, 1.303151783207026, 1770075803088030277, 
-0.09121847152709961, -0.031976163387298584, 1.1767513238751908, 1770075803118166789, 
1.057073712348938, 0.3484381437301636, 0.9818421878582119, 1770075803141738353, 
-0.14960771799087524, 0.2492436170578003, 1.256542860034786, 1770075803177924725, 
0.145488440990448, 0.7927804589271545, 1.1796956507360572, 1770075803207894567, 
-0.08532583713531494, 0.6896787285804749, 1.1836086388050033, 1770075803237808990, 
0.15491974353790283, -0.07725775241851807, 1.1607540438075303, 1770075803268614965, 
-0.8172464966773987, 0.2893344759941101, 1.0651720640079467, 1770075803301955341, 
0.24007076025009155, 0.28825366497039795, 1.340574215867596, 1770075803327896643, 
-0.10746133327484131, 0.3208273649215698, 1.1615834595266807, 1770075803357694515, 
1.0066555738449097, 0.7487888336181641, 1.1491424221460789, 1770075803387869131, 
0.0726969838142395, 0.6743850111961365, 1.1262308852886667, 1770075803417748527, 
0.06163334846496582, 0.3300306797027588, 1.1217930316532907, 1770075803447710335, 
-0.35775476694107056, -0.12152218818664551, 1.1664542213329459, 1770075803477964517, 
-0.13964241743087769, -0.35677671432495117, 1.13535656232936, 1770075803509308115, 
0.0318986177444458, 0.9536568522453308, 1.1706754969055981, 1770075803539877344, 
-0.5825799703598022, 0.045067548751831055, 1.313569323266565, 1770075803575602524, 
0.14950251579284668, 0.18179142475128174, 1.0912737589231654, 1770075803607440239, 
-0.626427412033081, 0.413888156414032, 1.1606675432316096, 1770075803637525818, 
0.23816215991973877, 0.6564636826515198, 1.1062719302566522, 1770075803669166734, 
-0.5731468200683594, 0.2393430471420288, 1.145153564935038, 1770075803699348349, 
0.5693784952163696, 0.35273808240890503, 1.2466403485889517, 1770075803737282751, 
-0.32480376958847046, 0.411734402179718, 1.1736579275846017, 1770075803767195508, 
0.49291932582855225, 0.6659295558929443, 1.1562823126581425, 1770075803797222561, 
0.11276024580001831, 0.19115108251571655, 1.053533879488994, 1770075803829634702, 
0.04835700988769531, -0.47912925481796265, 1.1684696742235898, 1770075803859115575, 
-0.405961811542511, 0.1502476930618286, 1.2323475945413769, 1770075803887021707, 
-0.031897664070129395, -0.051587700843811035, 1.1440722195653565, 1770075803917070903, 
-0.1255205273628235, 0.3824611306190491, 1.1678879214928055, 1770075803946966863, 
-0.07900118827819824, 0.5048679709434509, 1.1627673489156882, 1770075803976931094, 
0.4821705222129822, 0.3865969777107239, 1.152678208091967, 1770075804007093359, 
-0.3713616132736206, 0.0895203948020935, 1.1063440708542143, 1770075804037882635, 
-0.28239113092422485, -0.09086638689041138, 1.0794903221412782, 1770075804069164518, 
0.030728161334991455, 0.25102388858795166, 1.2516582466696236, 1770075804096830574, 
-0.5124512910842896, 0.2385217547416687, 1.2030117887347946, 1770075804126813098, 
0.02211892604827881, -0.07035446166992188, 1.0762486156843374, 1770075804149397950, 
0.07917916774749756, 0.3619515895843506, 1.2654698799909332, 1770075804186693574, 
-0.1599099040031433, 0.29878753423690796, 1.1597675098721263, 1770075804216665903, 
-0.22348648309707642, 0.06042206287384033, 1.1540196279361707, 1770075804246622635, 
-0.3352036476135254, -0.19686651229858398, 1.1040261243136165, 1770075804277312804, 
-0.5601175427436829, 0.8415765166282654, 1.074182128891036, 1770075804309356861, 
0.6376930475234985, 0.03464305400848389, 1.2751356741829178, 1770075804346558592, 
-0.5030410289764404, -0.5173908472061157, 1.2118670390648034, 1770075804375503311, 
-0.4343840479850769, 0.04959440231323242, 1.1335562598462285, 1770075804406390978, 
0.16779416799545288, 0.3848525881767273, 1.14739842955166, 1770075804437250453, 
-0.4395448565483093, 0.5267130136489868, 1.1097882566166397, 1770075804469333776, 
-0.19100040197372437, 0.13070231676101685, 1.2714580173030432, 1770075804506485792, 
0.04253333806991577, -0.18849289417266846, 1.152777049459044, 1770075804536386812, 
0.41923069953918457, 0.19400495290756226, 1.1456374308510413, 1770075804566444718, 
0.38350731134414673, 0.4578496217727661, 1.138177343288651, 1770075804597567009, 
-0.2603999972343445, 0.3575747609138489, 1.123578007745455, 1770075804629239622, 
0.05371296405792236, 0.4454314112663269, 1.325126413525669, 1770075804656311659, 
0.06145578622817993, 0.24878323078155518, 1.196109070769317, 1770075804686326987, 
-0.14788198471069336, 0.3342149257659912, 1.1605539729436292, 1770075804716294175, 
-0.1621946096420288, 0.5131803154945374, 1.169853991029946, 1770075804746451785, 
0.14022594690322876, 0.6214055418968201, 1.1941077397414221, 1770075804776073516, 
-0.2604702115058899, -0.02006632089614868, 1.1860633611000344, 1770075804805908661, 
0.22426724433898926, 0.07988262176513672, 1.12914331905664, 1770075804837334903, 
0.15636426210403442, 0.06565231084823608, 1.1307140177283033, 1770075804868730046, 
-0.3717954754829407, 0.6185716986656189, 1.2556687914324214, 1770075804905811066, 
0.02340865135192871, 0.13674020767211914, 1.1434470863304504, 1770075804935869956, 
-0.5085709095001221, 0.006769895553588867, 1.179362907925305, 1770075804965778114, 
-0.2582186460494995, 0.027974963188171387, 1.1159984951950528, 1770075804997872568, 
-0.2917482852935791, 0.8071761727333069, 1.156213281233823, 1770075805028324008, 
-0.11972200870513916, -0.2914878726005554, 1.2542367999954125, 1770075805065899860, 
-0.42932260036468506, 0.19158369302749634, 1.2029246965462377, 1770075805095637481, 
-0.454115629196167, 0.1756274700164795, 1.1446535440014929, 1770075805125623142, 
0.20775538682937622, 0.4428814649581909, 1.091530215535719, 1770075805157883966, 
-0.22496968507766724, 0.7671768665313721, 1.1728749998012096, 1770075805187884420, 
0.477195143699646, 0.193372905254364, 1.286760040248446, 1770075805214620195, 
-0.5772550106048584, 0.12165039777755737, 1.1318846933038758, 1770075805245392967, 
-0.3368343114852905, 0.21322482824325562, 1.0406082152002005, 1770075805267961878, 
0.029908418655395508, 0.23144763708114624, 1.2549463271844297, 1770075805305327360, 
-0.5261825919151306, 0.6054564118385315, 1.1639086708752973, 1770075805335322893, 
0.7529008984565735, 0.27943718433380127, 1.133086493436712, 1770075805365721782, 
-0.38260793685913086, 0.2981375455856323, 1.0513846751079368, 1770075805397471926, 
-0.1159970760345459, 0.32712405920028687, 1.2108005358279714, 1770075805425308767, 
-0.20391571521759033, 0.0819140076637268, 1.1606755645710398, 1770075805455198013, 
-0.4805561304092407, -0.12358319759368896, 1.16705755621171, 1770075805485164095, 
-0.671808123588562, 0.3122238516807556, 1.1768969466127568, 1770075805515135230, 
0.0699349045753479, 0.6118096709251404, 1.2122208673481294, 1770075805545070689, 
-0.26022040843963623, 0.5644617080688477, 1.1898307138856088, 1770075805575168091, 
0.1573774814605713, 0.49465250968933105, 1.1632458909863632, 1770075805605485717, 
0.14480626583099365, 0.13107293844223022, 1.085919804012108, 1770075805637820997, 
-0.3845144510269165, -0.10989278554916382, 1.273002062337845, 1770075805664983657, 
0.19157695770263672, 0.08992302417755127, 1.167310311075745, 1770075805694905682, 
-0.4893171787261963, 0.5679012537002563, 1.1670835441442176, 1770075805725047223, 
0.1561117172241211, 0.468278706073761, 1.201827838587422, 1770075805754800906, 
0.2404446005821228, 0.4726673364639282, 1.1960970416846244, 1770075805784986490, 
0.5818085670471191, 0.42312824726104736, 1.188094521670826, 1770075805814774771, 
-0.14685332775115967, -0.20766711235046387, 1.1350750869341348, 1770075805845443556, 
0.07203692197799683, 0.01392585039138794, 1.0721872277035709, 1770075805877638901, 
-0.2053372859954834, 0.45376813411712646, 1.2829260434023604, 1770075805905009722, 
-0.49937647581100464, 0.4813847541809082, 1.1531766830515329, 1770075805925210656, 
0.541004478931427, 0.6133222579956055, 1.0599206034667812, 1770075805958011746, 
0.07529264688491821, 0.3287615180015564, 1.2840511400981969, 1770075805984930608, 
0.21154236793518066, -0.09391802549362183, 1.162337375554087, 1770075806014952976, 
0.20650649070739746, 0.03812891244888306, 1.1853232172523374, 1770075806044872584, 
-0.4089926481246948, -0.17510473728179932, 1.1554488784389831, 1770075806074431051, 
0.11638689041137695, 0.5484962463378906, 1.1434312622026674, 1770075806104427279, 
0.021539926528930664, 0.6701766848564148, 1.1528911896562388, 1770075806134517059, 
-0.08112335205078125, 0.30957406759262085, 1.1272835083006294, 1770075806165564376, 
-0.31813234090805054, 0.09788423776626587, 1.1294952705172838, 1770075806197545357, 
0.4394993185997009, 0.8180942535400391, 1.2999787130062412, 1770075806234266033, 
0.23087775707244873, 0.443661630153656, 1.1585401905702162, 1770075806264171536, 
0.4935053586959839, 0.11873769760131836, 1.1466356668606559, 1770075806295026799, 
0.017361044883728027, 0.4127572774887085, 1.1517177801613685, 1770075806325266212, 
0.15272706747055054, 0.14998328685760498, 1.1053556759402035, 1770075806357141905, 
-0.298000693321228, 0.3708569407463074, 1.2601711766324462, 1770075806394396878, 
0.024294555187225342, 0.10319280624389648, 1.1814956485357784, 1770075806424076383, 
-0.6145361065864563, 0.45125681161880493, 1.1805208784966992, 1770075806454009156, 
-0.2794087529182434, 0.30552202463150024, 1.1089956987046934, 1770075806485377223, 
-0.12561166286468506, 0.01879119873046875, 1.1263905992879302, 1770075806515601995, 
-0.2365085482597351, 0.14373815059661865, 1.2271233150043421, 1770075806543901505, 
0.4923276901245117, 0.6757717132568359, 1.164650562638459, 1770075806573908839, 
-0.25283944606781006, 0.4499947428703308, 1.1526745848243842, 1770075806603776068, 
-0.021683871746063232, 0.3598490357398987, 1.1722688045131566, 1770075806633815736, 
-0.2415759563446045, 0.2171013355255127, 1.1675448048819923, 1770075806664208232, 
-0.19173598289489746, -0.14245784282684326, 1.2015595873868836, 1770075806693638330, 
0.02043747901916504, 0.37551820278167725, 1.0698863437870558, 1770075806725928743, 
0.4127592444419861, 0.47566723823547363, 1.134057599339782, 1770075806755958652, 
-0.5652592182159424, 0.29832106828689575, 1.2124859363428235, 1770075806793516810, 
-0.34944844245910645, 0.08779269456863403, 1.1240474699305152, 1770075806823677833, 
-0.1541648507118225, 0.14669203758239746, 1.1492105716010197, 1770075806853629462, 
-0.2755485773086548, 0.37657374143600464, 1.1047619206735986, 1770075806885468351, 
0.7419609427452087, 0.380187451839447, 1.2615569188401659, 1770075806913564088, 
-0.3977133631706238, 0.1840287446975708, 1.1573530558197418, 1770075806943396582, 
0.005884230136871338, 0.1656525731086731, 1.0384787282616923, 1770075806965385640, 
-0.05381965637207031, 0.37942302227020264, 1.203691069497691, 1770075807003317674, 
0.028379321098327637, 0.020152151584625244, 1.1791179038668327, 1770075807033265536, 
0.09415358304977417, -0.050863564014434814, 1.1517192084358017, 1770075807063402868, 
